Folder: Chalmers-Master-Thesis/processed

Note: README.md
## Chalmers-Master-Thesis

Document folder 'XJTU Battery Dataset' is empty due to the constraint of file size on GitHub.

File: XJTU_all_cycles.csv
Cycle,Capacity_Ah,SoH,V_mean,V_std,t_sec,T_mean,File,Batch
1,1.991,1,3.69474,0.245208,17921,25.761,2C_battery-1,Batch-1
135,1.951,0.993887,3.59111,0.269588,3511,26.5453,2C_battery-1,Batch-1
269,1.848,0.941416,3.5518,0.281898,3327,22.2892,2C_battery-1,Batch-1
13,1.911,0.975,3.62265,0.247449,3440,26.9108,2C_battery-2,Batch-1
147,1.944,0.991837,3.59092,0.269899,3500,26.6309,2C_battery-2,Batch-1
281,1.833,0.935204,3.55115,0.28183,3300,22.2235,2C_battery-2,Batch-1
8,1.893,0.966309,3.62497,0.245053,3408,27.0519,2C_battery-3,Batch-1
142,1.939,0.989791,3.59022,0.268082,3490,26.3526,2C_battery-3,Batch-1
276,1.815,0.926493,3.54628,0.282031,3266,21.6952,2C_battery-3,Batch-1
17,1.919,0.980583,3.61915,0.249961,3455,26.9238,2C_battery-4,Batch-1
151,1.942,0.992335,3.58721,0.272697,3496,26.3926,2C_battery-4,Batch-1
285,1.826,0.933061,3.53577,0.288874,3287,21.5049,2C_battery-4,Batch-1
23,1.951,0.992875,3.61094,0.255919,3513,26.6137,2C_battery-5,Batch-1
157,1.947,0.99084,3.58936,0.272428,3505,26.9767,2C_battery-5,Batch-1
291,1.819,0.9257,3.5341,0.290977,3275,21.1795,2C_battery-5,Batch-1
22,1.949,0.992363,3.61523,0.254461,3509,26.7526,2C_battery-6,Batch-1
156,1.956,0.995927,3.59077,0.274202,3522,27.7769,2C_battery-6,Batch-1
290,1.82,0.92668,3.54007,0.291795,3276,21.7315,2C_battery-6,Batch-1
16,1.963,0.995941,3.60854,0.255723,3533,27.0983,2C_battery-7,Batch-1
150,1.938,0.983257,3.58499,0.27144,3488,26.2884,2C_battery-7,Batch-1
284,1.82,0.923389,3.53557,0.287935,3277,21.3298,2C_battery-7,Batch-1
16,1.922,0.985641,3.612,0.252731,3460,26.5462,2C_battery-8,Batch-1
150,1.941,0.995385,3.58229,0.273056,3495,25.9933,2C_battery-8,Batch-1
284,1.828,0.937436,3.53329,0.286716,3291,20.9216,2C_battery-8,Batch-1
418,1.605,0.823077,3.50286,0.292981,2889,22.3476,2C_battery-8,Batch-1
132,1.921,0.979602,3.59161,0.266424,3459,26.5624,3C_battery-1,Batch-2
266,1.741,0.887812,3.54709,0.27887,3134,23.3866,3C_battery-1,Batch-2
101,1.866,0.971875,3.59175,0.262013,3359,23.0022,3C_battery-10,Batch-2
71,1.875,0.981675,3.58979,0.261603,3375,22.405,3C_battery-11,Batch-2
74,1.912,0.996872,3.5904,0.265631,3442,22.818,3C_battery-12,Batch-2
208,1.63,0.849844,3.55777,0.272629,2934,22.3541,3C_battery-12,Batch-2
130,1.886,0.980249,3.5845,0.267617,3394,23.2727,3C_battery-13,Batch-2
38,1.907,1,3.59192,0.263511,3433,22.3632,3C_battery-14,Batch-2
25,1.882,0.99157,3.59607,0.258373,3388,21.6811,3C_battery-15,Batch-2
159,1.66,0.874605,3.57511,0.265664,2989,22.7026,3C_battery-15,Batch-2
125,1.937,0.977789,3.59671,0.263329,3486,26.1146,3C_battery-2,Batch-2
259,1.77,0.893488,3.56165,0.274162,3186,23.19,3C_battery-2,Batch-2
101,1.957,0.992897,3.59135,0.268171,3523,26.4654,3C_battery-3,Batch-2
235,1.802,0.914257,3.55505,0.281581,3244,25.7507,3C_battery-3,Batch-2
83,1.943,0.993354,3.59872,0.264398,3498,26.6611,3C_battery-4,Batch-2
217,1.848,0.944785,3.58484,0.270015,3328,26.6596,3C_battery-4,Batch-2
29,1.957,0.996436,3.60991,0.257193,3523,27.2931,3C_battery-5,Batch-2
163,1.9,0.967413,3.58929,0.266192,3420,26.6988,3C_battery-5,Batch-2
297,1.598,0.813646,3.53079,0.284143,2876,22.5128,3C_battery-5,Batch-2
134,1.924,0.980132,3.5909,0.269228,3464,26.4585,3C_battery-6,Batch-2
268,1.795,0.914417,3.54468,0.283861,3231,22.7806,3C_battery-6,Batch-2
80,1.975,1,3.5996,0.265734,3556,26.404,3C_battery-7,Batch-2
214,1.883,0.954868,3.58062,0.276259,3389,26.6536,3C_battery-7,Batch-2
29,1.956,0.996434,3.61007,0.25693,3520,26.6428,3C_battery-8,Batch-2
163,1.895,0.965359,3.59067,0.26619,3411,25.9485,3C_battery-8,Batch-2
27,1.902,0.98908,3.60022,0.257181,3425,22.1269,3C_battery-9,Batch-2
161,1.867,0.970879,3.57807,0.271616,3362,23.1235,3C_battery-9,Batch-2
8,1.902,0.947211,3.62605,0.244857,3424,27.0662,R2.5_battery-1,Batch-3
142,1.987,0.989542,3.64008,0.262961,7153,25.1119,R2.5_battery-1,Batch-3
276,1.942,0.967131,3.32562,0.213568,700,35.4268,R2.5_battery-1,Batch-3
410,1.846,0.919323,3.39772,0.254777,1108,29.8603,R2.5_battery-1,Batch-3
544,1.648,0.820717,3.42161,0.279326,1484,27.4454,R2.5_battery-1,Batch-3
86,2.003,0.998007,3.38005,0.227678,721,38.8454,R2.5_battery-2,Batch-3
220,1.949,0.971101,3.45356,0.255081,1169,32.7977,R2.5_battery-2,Batch-3
354,1.849,0.921276,3.46209,0.273783,1664,25.2134,R2.5_battery-2,Batch-3
488,1.698,0.846039,3.53018,0.287505,3056,23.971,R2.5_battery-2,Batch-3
70,1.979,0.98654,3.47939,0.252617,1188,31.935,R2.5_battery-3,Batch-3
204,1.952,0.973081,3.52031,0.267268,1757,29.493,R2.5_battery-3,Batch-3
338,1.879,0.93669,3.55641,0.281078,3382,21.5577,R2.5_battery-3,Batch-3
472,1.857,0.925723,3.61028,0.276953,6684,21.5594,R2.5_battery-3,Batch-3
606,1.712,0.85344,3.26059,0.211776,617,35.7454,R2.5_battery-3,Batch-3
73,1.968,0.975223,3.59745,0.26363,3543,25.9274,R2.5_battery-4,Batch-3
207,1.959,0.970763,3.63913,0.261779,7053,25.4746,R2.5_battery-4,Batch-3
341,1.894,0.938553,3.32049,0.212106,682,34.8948,R2.5_battery-4,Batch-3
475,1.734,0.859267,3.38021,0.254608,1040,29.5137,R2.5_battery-4,Batch-3
52,2.01,1,3.64824,0.256357,7236,25.7796,R2.5_battery-5,Batch-3
186,1.988,0.992016,3.3665,0.227869,716,38.7072,R2.5_battery-5,Batch-3
320,1.89,0.943114,3.40119,0.260367,1134,28.2397,R2.5_battery-5,Batch-3
454,1.761,0.878743,3.43156,0.284775,1585,26.2193,R2.5_battery-5,Batch-3
26,1.989,0.995495,3.39241,0.229047,716,38.5574,R2.5_battery-6,Batch-3
160,1.951,0.976476,3.45996,0.255864,1171,32.0332,R2.5_battery-6,Batch-3
294,1.863,0.932432,3.47231,0.272226,1678,24.6932,R2.5_battery-6,Batch-3
428,1.781,0.891391,3.54008,0.285388,3207,22.4006,R2.5_battery-6,Batch-3
20,1.931,0.967435,3.48787,0.244902,1159,32.5853,R2.5_battery-7,Batch-3
154,1.943,0.973447,3.51324,0.266626,1748,28.9852,R2.5_battery-7,Batch-3
288,1.873,0.938377,3.55246,0.278625,3371,21.7983,R2.5_battery-7,Batch-3
422,1.819,0.911323,3.60938,0.275045,6550,21.4638,R2.5_battery-7,Batch-3
29,1.948,0.972541,3.54194,0.254989,1754,29.2106,R2.5_battery-8,Batch-3
163,1.958,0.977534,3.59314,0.266864,3524,26.0539,R2.5_battery-8,Batch-3
297,1.905,0.951073,3.6202,0.26892,6858,20.4211,R2.5_battery-8,Batch-3
431,1.858,0.927609,3.30817,0.21542,669,34.4806,R2.5_battery-8,Batch-3
565,1.698,0.847728,3.35809,0.256683,1019,28.6465,R2.5_battery-8,Batch-3
82,1.905,0.967988,3.55773,0.226167,1715,28.7363,R3_battery-1,Batch-4
216,1.882,0.956301,3.40052,0.191202,677,36.9027,R3_battery-1,Batch-4
350,1.862,0.946138,3.64277,0.234573,6703,20.4087,R3_battery-1,Batch-4
484,1.774,0.901423,3.51185,0.223212,1598,25.9266,R3_battery-1,Batch-4
618,1.69,0.85874,3.33529,0.156658,609,33.862,R3_battery-1,Batch-4
752,1.623,0.824695,3.61231,0.239403,5845,21.3799,R3_battery-1,Batch-4
87,1.931,0.979209,3.62066,0.231243,3476,25.8157,R3_battery-2,Batch-4
221,1.884,0.955375,3.48653,0.219365,1131,30.8626,R3_battery-2,Batch-4
355,1.891,0.958925,3.55958,0.274175,3403,21.2239,R3_battery-2,Batch-4
489,1.797,0.911258,3.58428,0.237053,3234,22.6421,R3_battery-2,Batch-4
623,1.574,0.798174,3.40894,0.200577,945,28.5604,R3_battery-2,Batch-4
84,1.928,0.967871,3.41673,0.193592,695,34.6085,R3_battery-3,Batch-4
218,1.957,0.98243,3.65986,0.232447,7046,24.6718,R3_battery-3,Batch-4
352,1.801,0.904116,3.51621,0.224154,1622,23.0837,R3_battery-3,Batch-4
486,1.759,0.883032,3.35817,0.170023,633,31.7374,R3_battery-3,Batch-4
620,1.666,0.836345,3.62394,0.238239,5996,20.9892,R3_battery-3,Batch-4
81,1.946,0.973,3.62332,0.230703,3502,25.6894,R3_battery-4,Batch-4
215,1.875,0.9375,3.48619,0.219592,1125,29.4877,R3_battery-4,Batch-4
349,1.898,0.949,3.56269,0.274097,3417,20.9503,R3_battery-4,Batch-4
483,1.808,0.904,3.58781,0.236683,3254,22.3209,R3_battery-4,Batch-4
617,1.637,0.8185,3.42004,0.201054,982,26.6914,R3_battery-4,Batch-4
24,1.895,0.963886,3.42114,0.198043,682,35.3331,R3_battery-5,Batch-4
158,1.946,0.989827,3.66172,0.231187,7004,25.1848,R3_battery-5,Batch-4
292,1.809,0.920142,3.51704,0.226482,1628,23.436,R3_battery-5,Batch-4
426,1.767,0.898779,3.35716,0.175105,636,32.212,R3_battery-5,Batch-4
560,1.798,0.914547,3.63559,0.236619,6473,20.8363,R3_battery-5,Batch-4
694,1.553,0.789929,3.46382,0.221323,1398,24.1404,R3_battery-5,Batch-4
89,1.897,0.964413,3.49675,0.221656,1138,29.9309,R3_battery-6,Batch-4
223,1.956,0.994408,3.58965,0.268619,3521,25.3453,R3_battery-6,Batch-4
357,1.814,0.922217,3.58609,0.236458,3266,20.866,R3_battery-6,Batch-4
491,1.745,0.887138,3.4437,0.211562,1048,27.5407,R3_battery-6,Batch-4
625,1.796,0.913066,3.52583,0.28687,3234,22.2151,R3_battery-6,Batch-4
44,1.96,1,3.66446,0.229184,7057,25.3946,R3_battery-7,Batch-4
178,1.884,0.961224,3.54479,0.232333,1696,28.5664,R3_battery-7,Batch-4
312,1.77,0.903061,3.35058,0.180158,638,30.0167,R3_battery-7,Batch-4
446,1.793,0.914796,3.63977,0.236408,6457,20.6766,R3_battery-7,Batch-4
580,1.557,0.794388,3.46425,0.232899,1402,24.2354,R3_battery-7,Batch-4
113,1.887,0.958354,3.48988,0.223215,1132,29.3276,R3_battery-8,Batch-4
247,1.941,0.98578,3.57864,0.272089,3493,23.094,R3_battery-8,Batch-4
381,1.813,0.920772,3.58749,0.237902,3263,21.2493,R3_battery-8,Batch-4
515,1.733,0.880142,3.44087,0.211835,1040,27.7936,R3_battery-8,Batch-4
649,1.772,0.899949,3.52499,0.285474,3189,21.8459,R3_battery-8,Batch-4
32,1.907,0.996864,3.60066,0.254942,3433,21.1749,RW_battery-1,Batch-5
166,1.721,0.899634,3.54855,0.29223,1513,24.4215,RW_battery-1,Batch-5
103,1.862,0.952917,3.56289,0.252939,1587,24.955,RW_battery-2,Batch-5
237,1.805,0.923746,3.55902,0.281972,1755,24.9163,RW_battery-2,Batch-5
64,1.81,0.930591,3.62413,0.257029,1912,23.921,RW_battery-3,Batch-5
198,1.804,0.927506,3.55763,0.267178,1556,26.3323,RW_battery-3,Batch-5
332,1.521,0.782005,3.45855,0.226443,1195,28.7052,RW_battery-3,Batch-5
126,1.845,0.954475,3.53984,0.255572,1454,25.1357,RW_battery-4,Batch-5
8,1.8,0.929752,3.55052,0.218337,1536,25.7228,RW_battery-5,Batch-5
142,1.885,0.973657,3.58622,0.263862,3393,21.222,RW_battery-5,Batch-5
2,1.782,0.928125,3.53987,0.238081,1360,24.8127,RW_battery-6,Batch-5
136,1.827,0.9515625,3.53714,0.25833,1699,24.2553,RW_battery-6,Batch-5
51,1.874,0.975026,3.54982,0.254828,1814,24.8716,RW_battery-7,Batch-5
185,1.532,0.797086,3.49394,0.303949,1359,24.3054,RW_battery-7,Batch-5
133,1.794,0.930016,3.53827,0.262175,1407,24.8821,RW_battery-8,Batch-5
208,1.484,0.769311,3.55756,0.271313,2671,21.8532,RW_battery-8,Batch-5
1,1.991,1,3.69402,0.245545,17920,25.4552,Sim_satellite_battery-1,Batch-6
2,0.111,0.0563452,4.08317,0.0265,300,25.5969,Sim_satellite_battery-1,Batch-6
3,0.445,0.225888,3.97956,0.0797809,1200,25.7738,Sim_satellite_battery-1,Batch-6
4,0.756,0.383756,3.89193,0.125785,2040,25.9479,Sim_satellite_battery-1,Batch-6
5,0.912,0.462944,3.85194,0.144654,2460,25.9699,Sim_satellite_battery-1,Batch-6
6,1.023,0.519289,3.82567,0.155518,2760,25.9571,Sim_satellite_battery-1,Batch-6
7,1.922,0.975635,3.66567,0.243547,6921,25.7833,Sim_satellite_battery-1,Batch-6
8,1.112,0.564467,3.80467,0.161936,3000,25.9586,Sim_satellite_battery-1,Batch-6
9,1.201,0.609645,3.78878,0.168701,3240,25.9686,Sim_satellite_battery-1,Batch-6
10,1.245,0.63198,3.78,0.171668,3360,25.9552,Sim_satellite_battery-1,Batch-6
11,1.29,0.654822,3.77184,0.174322,3480,25.9616,Sim_satellite_battery-1,Batch-6
12,1.334,0.677157,3.76373,0.176932,3600,25.9724,Sim_satellite_battery-1,Batch-6
13,1.928,0.97868,3.66169,0.244696,6941,24.8375,Sim_satellite_battery-1,Batch-6
14,1.378,0.699492,3.75399,0.178729,3720,25.7761,Sim_satellite_battery-1,Batch-6
15,1.423,0.722335,3.74788,0.1816,3840,25.8063,Sim_satellite_battery-1,Batch-6
16,1.512,0.767513,3.73267,0.186371,4080,25.8168,Sim_satellite_battery-1,Batch-6
17,1.534,0.77868,3.72874,0.187464,4140,25.8219,Sim_satellite_battery-1,Batch-6
18,1.556,0.789848,3.72505,0.188646,4200,25.8336,Sim_satellite_battery-1,Batch-6
19,1.942,0.985787,3.66147,0.246103,6993,25.6389,Sim_satellite_battery-1,Batch-6
20,1.579,0.801523,3.72061,0.18933,4260,25.811,Sim_satellite_battery-1,Batch-6
21,1.601,0.81269,3.71776,0.190983,4320,25.8106,Sim_satellite_battery-1,Batch-6
22,1.601,0.81269,3.71788,0.190991,4321,25.8747,Sim_satellite_battery-1,Batch-6
23,1.601,0.81269,3.7178,0.19101,4320,25.8692,Sim_satellite_battery-1,Batch-6
24,1.953,0.991371,3.65972,0.247187,7032,25.6961,Sim_satellite_battery-1,Batch-6
25,1.601,0.81269,3.71738,0.190658,4321,25.8812,Sim_satellite_battery-1,Batch-6
26,1.601,0.81269,3.71799,0.190937,4320,25.8745,Sim_satellite_battery-1,Batch-6
27,1.601,0.81269,3.71799,0.191066,4320,25.8581,Sim_satellite_battery-1,Batch-6
28,1.601,0.81269,3.7178,0.191127,4320,25.8311,Sim_satellite_battery-1,Batch-6
29,1.601,0.81269,3.71773,0.191183,4320,25.8109,Sim_satellite_battery-1,Batch-6
30,1.962,0.995939,3.65758,0.248576,7065,25.5827,Sim_satellite_battery-1,Batch-6
31,1.601,0.81269,3.71716,0.190822,4320,25.7211,Sim_satellite_battery-1,Batch-6
32,1.601,0.81269,3.71761,0.191016,4320,25.7289,Sim_satellite_battery-1,Batch-6
33,1.601,0.81269,3.71755,0.191197,4321,25.7287,Sim_satellite_battery-1,Batch-6
34,1.579,0.801523,3.72107,0.190004,4260,25.6965,Sim_satellite_battery-1,Batch-6
35,1.97,1,3.65592,0.249407,7092,25.5319,Sim_satellite_battery-1,Batch-6
36,1.556,0.789848,3.7243,0.18842,4200,25.6615,Sim_satellite_battery-1,Batch-6
37,1.534,0.77868,3.72868,0.187794,4140,25.6709,Sim_satellite_battery-1,Batch-6
38,1.512,0.767513,3.73232,0.186422,4080,25.6361,Sim_satellite_battery-1,Batch-6
39,1.423,0.722335,3.74765,0.181996,3840,25.6968,Sim_satellite_battery-1,Batch-6
40,1.378,0.699492,3.75558,0.179913,3721,25.7076,Sim_satellite_battery-1,Batch-6
41,1.979,1,3.65448,0.250871,7123,25.5173,Sim_satellite_battery-1,Batch-6
42,1.334,0.677157,3.7623,0.17724,3600,25.6346,Sim_satellite_battery-1,Batch-6
43,1.29,0.654822,3.7702,0.175169,3480,25.1931,Sim_satellite_battery-1,Batch-6
44,1.245,0.63198,3.77889,0.172218,3361,25.3907,Sim_satellite_battery-1,Batch-6
45,1.201,0.609645,3.78785,0.169659,3240,25.5039,Sim_satellite_battery-1,Batch-6
46,1.112,0.564467,3.80526,0.16377,3000,25.3174,Sim_satellite_battery-1,Batch-6
47,1.983,1,3.65277,0.251464,7142,25.3245,Sim_satellite_battery-1,Batch-6
48,1.023,0.519289,3.82436,0.156225,2760,25.7084,Sim_satellite_battery-1,Batch-6
49,0.912,0.462944,3.85075,0.145562,2460,25.4124,Sim_satellite_battery-1,Batch-6
50,0.756,0.383756,3.89039,0.12674,2040,25.2971,Sim_satellite_battery-1,Batch-6
51,0.445,0.225888,3.97979,0.0809187,1200,25.2518,Sim_satellite_battery-1,Batch-6
52,0.111,0.0563452,4.08815,0.0261435,300,24.8568,Sim_satellite_battery-1,Batch-6
53,1.992,1,3.65296,0.252498,7171,24.9935,Sim_satellite_battery-1,Batch-6
54,0.111,0.0563452,4.08488,0.0266499,300,24.9271,Sim_satellite_battery-1,Batch-6
55,0.445,0.225888,3.97991,0.0804931,1200,24.9054,Sim_satellite_battery-1,Batch-6
56,0.756,0.383756,3.89085,0.127037,2040,25.0604,Sim_satellite_battery-1,Batch-6
57,0.912,0.462944,3.85022,0.145928,2460,25.0564,Sim_satellite_battery-1,Batch-6
58,1.023,0.519289,3.82344,0.156731,2760,24.9889,Sim_satellite_battery-1,Batch-6
59,1.984,1,3.6507,0.252698,7145,24.7498,Sim_satellite_battery-1,Batch-6
60,1.112,0.564467,3.80286,0.163115,3000,25.0961,Sim_satellite_battery-1,Batch-6
61,1.201,0.609645,3.78675,0.169777,3240,25.2257,Sim_satellite_battery-1,Batch-6
62,1.245,0.63198,3.77837,0.172636,3360,25.2875,Sim_satellite_battery-1,Batch-6
63,1.29,0.654822,3.76998,0.175298,3480,25.3264,Sim_satellite_battery-1,Batch-6
64,1.334,0.677157,3.76179,0.177798,3600,25.3166,Sim_satellite_battery-1,Batch-6
65,1.987,1,3.65048,0.253266,7155,25.0276,Sim_satellite_battery-1,Batch-6
66,1.378,0.699492,3.7522,0.179714,3720,25.0531,Sim_satellite_battery-1,Batch-6
67,1.423,0.722335,3.7453,0.182476,3840,24.96,Sim_satellite_battery-1,Batch-6
68,1.512,0.767513,3.7296,0.187042,4081,24.8973,Sim_satellite_battery-1,Batch-6
69,1.534,0.77868,3.72554,0.188181,4140,24.8532,Sim_satellite_battery-1,Batch-6
70,1.556,0.789848,3.72137,0.189477,4200,24.7745,Sim_satellite_battery-1,Batch-6
71,1.983,1,3.64885,0.253757,7139,24.544,Sim_satellite_battery-1,Batch-6
72,1.579,0.801523,3.71787,0.189749,4260,25.0094,Sim_satellite_battery-1,Batch-6
73,1.601,0.81269,3.71543,0.191596,4320,25.2392,Sim_satellite_battery-1,Batch-6
74,1.601,0.81269,3.71545,0.191602,4320,25.2872,Sim_satellite_battery-1,Batch-6
75,1.601,0.81269,3.71529,0.191816,4320,25.2365,Sim_satellite_battery-1,Batch-6
76,1.989,1,3.64898,0.254049,7162,24.9687,Sim_satellite_battery-1,Batch-6
77,1.601,0.81269,3.71446,0.191498,4320,25.0765,Sim_satellite_battery-1,Batch-6
78,1.601,0.81269,3.71449,0.191844,4320,24.9605,Sim_satellite_battery-1,Batch-6
79,1.601,0.81269,3.71427,0.191852,4320,24.9284,Sim_satellite_battery-1,Batch-6
80,1.601,0.81269,3.71385,0.191944,4320,24.8319,Sim_satellite_battery-1,Batch-6
81,1.601,0.81269,3.71352,0.192054,4321,24.7448,Sim_satellite_battery-1,Batch-6
82,1.989,1,3.64779,0.254327,7160,24.6895,Sim_satellite_battery-1,Batch-6
83,1.601,0.81269,3.71417,0.19173,4320,25.0071,Sim_satellite_battery-1,Batch-6
84,1.601,0.81269,3.71538,0.191242,4320,25.3789,Sim_satellite_battery-1,Batch-6
85,1.601,0.81269,3.71653,0.191842,4320,25.6413,Sim_satellite_battery-1,Batch-6
86,1.579,0.801523,3.71887,0.190829,4260,25.2438,Sim_satellite_battery-1,Batch-6
87,1.99,1,3.64765,0.255042,7165,24.7418,Sim_satellite_battery-1,Batch-6
88,1.556,0.789848,3.72091,0.189305,4200,24.8171,Sim_satellite_battery-1,Batch-6
89,1.534,0.77868,3.72476,0.188418,4140,24.7315,Sim_satellite_battery-1,Batch-6
90,1.512,0.767513,3.72813,0.187342,4080,24.6401,Sim_satellite_battery-1,Batch-6
91,1.423,0.722335,3.74314,0.18273,3840,24.5784,Sim_satellite_battery-1,Batch-6
92,1.378,0.699492,3.75079,0.180617,3720,24.5062,Sim_satellite_battery-1,Batch-6
[...]
948,1.334,0.67888,3.69387,0.187373,3600,21.1502,Sim_satellite_battery-8,Batch-6
949,1.79,0.910941,3.60628,0.268745,6443,20.7402,Sim_satellite_battery-8,Batch-6
950,1.379,0.701781,3.685,0.190717,3719,20.9616,Sim_satellite_battery-8,Batch-6
951,1.423,0.724173,3.67985,0.195056,3839,20.858,Sim_satellite_battery-8,Batch-6
952,1.512,0.769466,3.658,0.200831,4079,20.9059,Sim_satellite_battery-8,Batch-6
953,1.534,0.780662,3.65245,0.202979,4140,20.9336,Sim_satellite_battery-8,Batch-6
954,1.556,0.791858,3.64718,0.205427,4200,20.9615,Sim_satellite_battery-8,Batch-6
955,1.785,0.908397,3.60531,0.269072,6427,20.6283,Sim_satellite_battery-8,Batch-6
956,1.579,0.803562,3.64312,0.208068,4259,20.9318,Sim_satellite_battery-8,Batch-6
957,1.601,0.814758,3.63633,0.211145,4320,20.9401,Sim_satellite_battery-8,Batch-6
958,1.601,0.814758,3.63574,0.211577,4320,20.9553,Sim_satellite_battery-8,Batch-6
959,1.601,0.814758,3.63481,0.211988,4320,20.941,Sim_satellite_battery-8,Batch-6
960,1.776,0.903817,3.60423,0.269698,6395,20.6164,Sim_satellite_battery-8,Batch-6
961,1.601,0.814758,3.63588,0.212371,4320,20.9355,Sim_satellite_battery-8,Batch-6
962,1.601,0.814758,3.63318,0.212487,4320,20.8933,Sim_satellite_battery-8,Batch-6
963,1.601,0.814758,3.63261,0.212993,4320,20.9349,Sim_satellite_battery-8,Batch-6
964,1.601,0.814758,3.63205,0.213345,4320,20.9741,Sim_satellite_battery-8,Batch-6
965,1.601,0.814758,3.63143,0.213735,4320,20.9826,Sim_satellite_battery-8,Batch-6
966,1.765,0.898219,3.60298,0.269855,6354,20.6368,Sim_satellite_battery-8,Batch-6
967,1.601,0.814758,3.6333,0.21419,4320,20.9961,Sim_satellite_battery-8,Batch-6
968,1.601,0.814758,3.62928,0.214262,4320,20.9323,Sim_satellite_battery-8,Batch-6
969,1.601,0.814758,3.6286,0.215027,4320,20.9048,Sim_satellite_battery-8,Batch-6
970,1.579,0.803562,3.63287,0.212108,4260,20.8752,Sim_satellite_battery-8,Batch-6
971,1.756,0.893639,3.60167,0.269998,6321,20.5774,Sim_satellite_battery-8,Batch-6
972,1.556,0.791858,3.64218,0.209138,4199,21.2256,Sim_satellite_battery-8,Batch-6
973,1.534,0.780662,3.64378,0.206464,4140,21.2458,Sim_satellite_battery-8,Batch-6
974,1.512,0.769466,3.64767,0.204498,4079,21.2135,Sim_satellite_battery-8,Batch-6
975,1.423,0.724173,3.66564,0.196863,3839,21.2447,Sim_satellite_battery-8,Batch-6
976,1.379,0.701781,3.67382,0.193631,3719,21.2504,Sim_satellite_battery-8,Batch-6
977,1.746,0.88855,3.60179,0.270345,6285,20.8939,Sim_satellite_battery-8,Batch-6
978,1.334,0.67888,3.68486,0.191797,3599,21.032,Sim_satellite_battery-8,Batch-6
979,1.29,0.656489,3.68848,0.187323,3480,20.8157,Sim_satellite_battery-8,Batch-6
980,1.245,0.633588,3.69643,0.18424,3360,20.7398,Sim_satellite_battery-8,Batch-6
981,1.201,0.611196,3.70454,0.181092,3239,20.62,Sim_satellite_battery-8,Batch-6
982,1.112,0.565903,3.72274,0.174408,3000,20.5192,Sim_satellite_battery-8,Batch-6
983,1.734,0.882443,3.59726,0.271354,6241,20.303,Sim_satellite_battery-8,Batch-6
984,1.023,0.520611,3.74796,0.168525,2759,20.7321,Sim_satellite_battery-8,Batch-6
985,0.912,0.464122,3.77081,0.156296,2459,20.6203,Sim_satellite_battery-8,Batch-6
986,0.756,0.384733,3.81283,0.137939,2039,20.6927,Sim_satellite_battery-8,Batch-6
987,0.445,0.226463,3.90818,0.0903575,1199,20.4715,Sim_satellite_battery-8,Batch-6
988,0.111,0.0564885,4.02921,0.0337918,299,19.9786,Sim_satellite_battery-8,Batch-6
989,1.739,0.884987,3.59878,0.270785,6259,20.4661,Sim_satellite_battery-8,Batch-6
990,0.111,0.0564885,4.03761,0.0337658,299,20.6203,Sim_satellite_battery-8,Batch-6
991,0.445,0.226463,3.91035,0.0894106,1200,20.4052,Sim_satellite_battery-8,Batch-6
992,0.756,0.384733,3.81173,0.137531,2039,20.5416,Sim_satellite_battery-8,Batch-6
993,0.912,0.464122,3.76844,0.156313,2460,20.4669,Sim_satellite_battery-8,Batch-6
994,1.023,0.520611,3.74046,0.167154,2760,20.4357,Sim_satellite_battery-8,Batch-6
995,1.724,0.877354,3.59671,0.270872,6205,20.2538,Sim_satellite_battery-8,Batch-6
996,1.112,0.565903,3.7242,0.176416,2999,20.5801,Sim_satellite_battery-8,Batch-6
997,1.201,0.611196,3.69976,0.18174,3240,20.42,Sim_satellite_battery-8,Batch-6
998,1.245,0.633588,3.68923,0.185299,3359,20.4094,Sim_satellite_battery-8,Batch-6
999,1.29,0.656489,3.67952,0.188665,3480,20.4852,Sim_satellite_battery-8,Batch-6
1000,1.334,0.67888,3.66994,0.192412,3599,20.5374,Sim_satellite_battery-8,Batch-6
1001,1.709,0.86972,3.59357,0.272267,6151,19.9285,Sim_satellite_battery-8,Batch-6
1002,1.379,0.701781,3.66247,0.197001,3720,20.3409,Sim_satellite_battery-8,Batch-6
1003,1.423,0.724173,3.65037,0.199949,3840,20.5863,Sim_satellite_battery-8,Batch-6
1004,1.512,0.769466,3.63088,0.209864,4080,20.8274,Sim_satellite_battery-8,Batch-6
1005,1.534,0.780662,3.62516,0.213947,4140,20.8495,Sim_satellite_battery-8,Batch-6
1006,1.556,0.791858,3.61868,0.218353,4200,20.8806,Sim_satellite_battery-8,Batch-6
1007,1.698,0.864122,3.59586,0.271782,6111,20.5103,Sim_satellite_battery-8,Batch-6
1008,1.579,0.803562,3.61601,0.223249,4260,20.9903,Sim_satellite_battery-8,Batch-6
1009,1.601,0.814758,3.6036,0.23009,4321,20.9733,Sim_satellite_battery-8,Batch-6
1010,1.601,0.814758,3.60406,0.230912,4320,21.0696,Sim_satellite_battery-8,Batch-6
1011,1.601,0.814758,3.60362,0.231115,4320,21.2658,Sim_satellite_battery-8,Batch-6
1012,1.688,0.859033,3.59766,0.271229,6077,20.9965,Sim_satellite_battery-8,Batch-6
1013,1.601,0.814758,3.60826,0.230848,4320,21.5043,Sim_satellite_battery-8,Batch-6
1014,1.601,0.814758,3.60268,0.23235,4320,21.4966,Sim_satellite_battery-8,Batch-6
1015,1.601,0.814758,3.60269,0.23322,4320,21.5874,Sim_satellite_battery-8,Batch-6
1016,1.601,0.814758,3.6014,0.234473,4320,21.6342,Sim_satellite_battery-8,Batch-6
1017,1.601,0.814758,3.60032,0.235837,4321,21.6515,Sim_satellite_battery-8,Batch-6
1018,1.674,0.851908,3.59755,0.27123,6026,21.2204,Sim_satellite_battery-8,Batch-6
1019,1.601,0.814758,3.60307,0.235358,4320,21.7217,Sim_satellite_battery-8,Batch-6
1020,1.601,0.814758,3.59682,0.237875,4320,21.6674,Sim_satellite_battery-8,Batch-6
1021,1.601,0.814758,3.59749,0.238423,4320,21.8029,Sim_satellite_battery-8,Batch-6
1022,1.579,0.803562,3.60423,0.231782,4260,21.8908,Sim_satellite_battery-8,Batch-6
1023,1.661,0.845293,3.59763,0.271125,5979,21.4184,Sim_satellite_battery-8,Batch-6
1024,1.556,0.791858,3.61137,0.22629,4200,21.8236,Sim_satellite_battery-8,Batch-6
1025,1.534,0.780662,3.61388,0.221933,4139,21.7406,Sim_satellite_battery-8,Batch-6
1026,1.512,0.769466,3.61849,0.218285,4080,21.7153,Sim_satellite_battery-8,Batch-6
1027,1.423,0.724173,3.63911,0.206129,3840,21.6188,Sim_satellite_battery-8,Batch-6
1028,1.379,0.701781,3.64777,0.201733,3720,21.5792,Sim_satellite_battery-8,Batch-6
1029,1.643,0.836132,3.59416,0.272445,5915,21.171,Sim_satellite_battery-8,Batch-6
1030,1.334,0.67888,3.65884,0.198852,3599,21.442,Sim_satellite_battery-8,Batch-6
1031,1.29,0.656489,3.66573,0.193824,3480,21.54,Sim_satellite_battery-8,Batch-6
1032,1.245,0.633588,3.67511,0.19073,3360,21.6098,Sim_satellite_battery-8,Batch-6
1033,1.201,0.611196,3.68463,0.18744,3240,21.6699,Sim_satellite_battery-8,Batch-6
1034,1.112,0.565903,3.70331,0.180587,2999,21.5487,Sim_satellite_battery-8,Batch-6
1035,1.629,0.829008,3.59401,0.272075,5865,21.2931,Sim_satellite_battery-8,Batch-6
1036,1.023,0.520611,3.72825,0.174822,2759,21.6059,Sim_satellite_battery-8,Batch-6
1037,0.912,0.464122,3.75075,0.162509,2460,21.3959,Sim_satellite_battery-8,Batch-6
1038,0.756,0.384733,3.79324,0.144442,2039,21.318,Sim_satellite_battery-8,Batch-6
1039,0.445,0.226463,3.89356,0.0952782,1199,21.1744,Sim_satellite_battery-8,Batch-6
1040,0.111,0.0564885,4.0212,0.0358897,299,20.6445,Sim_satellite_battery-8,Batch-6
1041,1.63,0.829517,3.59372,0.27166,5870,21.1096,Sim_satellite_battery-8,Batch-6
1042,0.111,0.0564885,4.02826,0.0360147,300,21.2488,Sim_satellite_battery-8,Batch-6
1043,0.445,0.226463,3.89506,0.0943215,1199,21.0711,Sim_satellite_battery-8,Batch-6
1044,0.756,0.384733,3.79158,0.144243,2040,21.1259,Sim_satellite_battery-8,Batch-6
1045,0.912,0.464122,3.74762,0.162911,2459,21.1466,Sim_satellite_battery-8,Batch-6
1046,1.023,0.520611,3.71846,0.173603,2760,21.1079,Sim_satellite_battery-8,Batch-6
1047,1.613,0.820865,3.59064,0.272806,5806,20.8168,Sim_satellite_battery-8,Batch-6
1048,1.112,0.565903,3.69695,0.181975,3000,21.0299,Sim_satellite_battery-8,Batch-6
1049,1.201,0.611196,3.67492,0.189371,3240,20.9727,Sim_satellite_battery-8,Batch-6
1050,1.245,0.633588,3.66105,0.192437,3360,20.6441,Sim_satellite_battery-8,Batch-6
1051,1.29,0.656489,3.65241,0.197298,3479,20.9937,Sim_satellite_battery-8,Batch-6
1052,1.334,0.67888,3.64124,0.202105,3600,21.022,Sim_satellite_battery-8,Batch-6
1053,1.593,0.810687,3.58911,0.272893,5735,20.6919,Sim_satellite_battery-8,Batch-6